Folder: programming-project-work-web/data_files

Note: data_files/test_spectrum2.txt
1127.56   607.21
453.29    197.35
1323.19   476.78
715.84    292.47
821.62    705.29
1390.43   551.78
1331.29   786.13
970.42    553.69
1338.92   87.14
1238.15   767.53
1360.47   474.61
831.67    2033.64
1477.53   764.79
434.22    2715.52
1205.04   242.22
981.23    698.89
1497.79   866.37
575.29    353.71
305.97    463.87
963.31    407.42
947.45    361.18
275.89    684.72
315.46    893.06
929.11    180.92

Note: data_files/test_spectrum3.txt
1326.58   853.12
591.47    299.65
1118.21   652.94
897.18    2514.33
1423.76   72.98
748.61    634.21
1294.49   283.76
689.35    896.57
1251.22   213.47
1038.75   146.28
541.36    972.58
1209.13   494.81
669.72    188.45
1467.33   345.27
1372.92   715.34
416.84    1933.65
982.45    672.53
724.81    526.47
1403.29   377.11
872.53    229.89
315.27    489.64
1071.42   791.13
1348.67   2201.28
1235.19   442.75

Note: data_files/test_spectrum.txt
378.05    892.74
822.19    209.07
1503.14   695.55
1203.61   2685.33
228.52    467.65
1295.16   727.65
576.52    390.07
231.39    594.06
1183.02   36.13
897.01    906.17
1302.21   554.29
1163.67   445.85
1312.48   198.98
1410.69   2823.65
1446.82   727.63
1044.73   985.74
1521.04   819.58
1139.46   540.36
872.12    56.32
396.83    639.45
309.91    888.83
1472.67   733.53
1576.71   214.76
1050.94   888.0

Note: README.md
# Web page implementation for the programming-project-work app

Changing the PyQT5 UI to wep pages using Python, Flask, SQL, HTML, CSS and Javascript.

Using "Flask Web Development, 2nd Edition, by Miguel Grinberg (Oâ€™Reilly). Copyright 2018 Miguel Grinberg, 978-1-491-99173-2." as a basis for the code.

File: SrU2F12_Raman.txt
# SrU2F12 Raman spectrum
# X = Freq (cm^-1); Y = Polycrystalline Raman intensity (arb. units)
41.75       0.1
84.27       0.95
88.65       0.0
115.74      3.67
120.22      5.44
138.22      10.61
139.80      2.2
144.23      0.9
154.13      6.45
160.08      8.26
180.66      11.22
192.46      0.04
198.86      6.14
215.94      28.08
236.93      44.56
250.66      8.0
270.59      0.48
274.57      110.09
324.32      113.52
453.15      7.39
458.32      44.78
486.40      211.39
494.64      78.15
504.37      181.35
513.02      68.03
534.32      30.33
646.23      1000
653.24      13.5